<!-- CreateExample-ListConditionResource.xml -->
<List xmlns="http://hl7.org/fhir">
    <meta>
        <profile value="https://fhir.nhs.uk/STU3/StructureDefinition/CareConnect-RARecord-List-1"/>
    </meta>
    <contained>
        <Condition xmlns="http://hl7.org/fhir">
            <id value="57f04652-6dd0-4135-a560-f9091b1b26fa"/>
            <meta>
                <profile value="https://fhir.nhs.uk/STU3/StructureDefinition/CareConnect-RARecord-Condition-1" />
            </meta>
            <extension url="https://fhir.nhs.uk/STU3/StructureDefinition/Extension-RARecord-Provenance-1">
                <extension url="created">
                    <valueReference>
                        <reference value="#8ce7de6b-1307-432d-8e96-ae6a613ca3e4"/>
                    </valueReference>
                </extension>
            </extension>
            <clinicalStatus value="active"/>
            <category>
                <coding>
                    <system value="https://fhir.hl7.org.uk/STU3/CodeSystem/CareConnect-ConditionCategory-1"/>
                    <code value="issue"/>
                    <display value="Issue"/>
                </coding>
            </category>
            <code>
                <coding>
                    <system value="https://fhir.nhs.uk/STU3/CodeSystem/RARecord-ConditionCode-1"/>
                    <code value="1855002"/>
                    <display value="Learning Disability(s)"/>
                </coding>
            </code>
            <subject>
                <reference value="demographics.spineservices.nhs.uk/STU3/Patient/999999998"/>
            </subject>
        </Condition>
    </contained>
    <contained>
        <Provenance>
            <id value="8ce7de6b-1307-432d-8e96-ae6a613ca3e4"/>
            <meta>
                <profile value="https://fhir.nhs.uk/STU3/StructureDefinition/RARecord-Provenance-1"/>
            </meta>
            <target>
                <reference value="Condition/57f04652-6dd0-4135-a560-f9091b1b26fa"/>
            </target>
            <recorded value="2018-07-23T11:00:00+00:00"/>
            <agent>
                <role>
                    <coding>
                        <system value="https://fhir.nhs.uk/STU3/CodeSystem/CareConnect-SDSJobRoleName-1"/>
                        <code value="R0260"/>
                        <display value="General Medical Practitioner"/>
                    </coding>
                </role>
                <whoReference>
                    <reference value="https://sds.spineservices.nhs.uk/STU3/Practitioner/2ee4tr6a9"/>
                    <display value="Dr.D"/>
                </whoReference>
                <onBehalfOfReference>
                    <reference value="https://directory.spineservices.nhs.uk/STU3/Organization/a3e5i7"/>
                    <display value="Some GP Clinic"/>
                </onBehalfOfReference>
            </agent>
        </Provenance>
    </contained>
    <status value="current"/>
    <mode value="changes"/>
    <title value="Reasonable Adjustment List"/>
    <code>
        <coding>
            <system value="http://snomed.info/sct"/>
            <code value="1094391000000102"/>
            <display value="Reasonable adjustments for health and care access"/>
        </coding>
    </code>
    <subject>
        <reference value="demographics.spineservices.nhs.uk/STU3/Patient/999999998"/>
    </subject>
    <date value="2018-07-23T11:00:00+00:00"/>
    <entry>
        <deleted value="false"/>
        <date value="2018-07-23T11:00:00+00:00"/>
        <item>
            <reference value="#57f04652-6dd0-4135-a560-f9091b1b26fa"/>
        </item>
    </entry>
    <entry>
        <deleted value="false"/>
        <date value="2018-07-23T11:00:00+00:00"/>
        <item>
            <reference value="#8ce7de6b-1307-432d-8e96-ae6a613ca3e4"/>
        </item>
    </entry>
</List>