{
  "resourceType": "Bundle",
  "id": "885dda30-e403-470f-956a-366c01d7eace",
  "fhir_comments": [
    " ReadConsentResponseBody-example.xml "
  ],
  "meta": {
    "profile": [
      "http://hl7.org/fhir/StructureDefinition/Bundle"
    ]
  },
  "type": "searchset",
  "total": 1,
  "link": [
    {
      "fhir_comments": [
        "  all search sets include the self link - the statement of the query string searched on. "
      ],
      "relation": "self",
      "url": "https://clinicals.spineservices.nhs.uk/STU3/Consent?patient=999999998&status=active&category=https://fhir.nhs.uk/STU3/CodeSystem/RARecord-FlagCategory-1|reasonable%20adjustments%20flag&_format=xml",
      "_url": {
        "fhir_comments": [
          " note entity encoding in url "
        ]
      }
    }
  ],
  "entry": [
    {
      "fhir_comments": [
        " search pagination is also represented as a link set here if required ",
        "    now, each entry is an action to take in the transaction    "
      ],
      "fullUrl": "https://clinicals.spineservices.nhs.uk/STU3/Consent/f1dc0ac6-45ff-4d2b-bf91-793971e3e286",
      "resource": {
        "resourceType": "Consent",
        "id": "f1dc0ac6-45ff-4d2b-bf91-793971e3e286",
        "fhir_comments": [
          " found payload resource or operationOutcome in here "
        ],
        "meta": {
          "versionId": "cccacb16-e087-45ee-8ddd-5fbd6223e5a2",
          "lastUpdated": "2018-07-23T11:00:00+00:00",
          "profile": [
            "https://fhir.nhs.uk/STU3/StructureDefinition/RARecord-Consent-1"
          ]
        },
        "contained": [
          {
            "resourceType": "Provenance",
            "id": "e0531fd1-212d-4a97-a7a9-d17cec9a6af2",
            "fhir_comments": [
              " Provenance constructed and persisted "
            ],
            "meta": {
              "profile": [
                "https://fhir.nhs.uk/STU3/StructureDefinition/RARecord-Provenance-1"
              ]
            },
            "target": [
              {
                "reference": "Consent/f1dc0ac6-45ff-4d2b-bf91-793971e3e286"
              }
            ],
            "recorded": "2018-07-23T11:00:00+00:00",
            "agent": [
              {
                "role": [
                  {
                    "coding": [
                      {
                        "system": "https://fhir.nhs.uk/STU3/CodeSystem/CareConnect-SDSJobRoleName-1",
                        "code": "R0260",
                        "display": "General Medical Practitioner"
                      }
                    ]
                  }
                ],
                "whoReference": {
                  "reference": "https://sds.spineservices.nhs.uk/STU3/Practitioner/2ee4tr6a9",
                  "display": "Dr.D"
                },
                "onBehalfOfReference": {
                  "reference": "https://directory.spineservices.nhs.uk/STU3/Organization/a3e5i7",
                  "display": "Some GP Clinic"
                }
              }
            ]
          }
        ],
        "extension": [
          {
            "url": "https://fhir.nhs.uk/STU3/StructureDefinition/Extension-RARecord-ProxyRole-1",
            "valueCodeableConcept": {
              "coding": [
                {
                  "system": "https://fhir.nhs.uk/STU3/CodeSystem/RARecord-ProxyRole-1",
                  "code": "003",
                  "display": "Lasting power of attorney for personal welfare or court-appointed deputy or equivalent (Mental Capacity Act 2005)"
                }
              ]
            }
          },
          {
            "url": "https://fhir.nhs.uk/STU3/StructureDefinition/Extension-RARecord-Provenance-1",
            "extension": [
              {
                "url": "created",
                "valueReference": {
                  "reference": "#e0531fd1-212d-4a97-a7a9-d17cec9a6af2"
                }
              }
            ]
          }
        ],
        "status": "active",
        "category": [
          {
            "coding": [
              {
                "system": "https://fhir.nhs.uk/STU3/CodeSystem/RARecord-FlagCategory-1",
                "code": "NRAF",
                "display": "National Reasonable Adjustments Flag"
              }
            ]
          }
        ],
        "patient": {
          "reference": "demographics.spineservices.nhs.uk/STU3/Patient/999999998"
        },
        "policy": [
          {
            "authority": "https://www.gov.uk/",
            "uri": "https://www.gov.uk/government/uploads/system/uploads/attachment_data/file/535024/data-security-review.pdf"
          }
        ],
        "purpose": [
          {
            "system": "https://snomed.info/sct",
            "code": "370856009",
            "display": "Limiting access to confidential patient information"
          }
        ]
      },
      "search": {
        "mode": "match"
      }
    }
  ]
}