{
  "resourceType": "Bundle",
  "id": "b45afdbc-cce1-4623-8942-2ec3baf879e7",
  "fhir_comments": [
    " ReadListResponseBody-example.xml "
  ],
  "meta": {
    "profile": [
      "http://hl7.org/fhir/StructureDefinition/Bundle"
    ]
  },
  "type": "searchset",
  "total": 1,
  "link": [
    {
      "fhir_comments": [
        "    all search sets include the self link - the statement of the query string searched on. "
      ],
      "relation": "self",
      "url": "https://clinicals.spineservices.nhs.uk/STU3/List?patient=999999998&status=current&code=http://snomed.info/sct|1094391000000102&_format=xml"
    }
  ],
  "entry": [
    {
      "fhir_comments": [
        " search pagination is also represented as a link set here if required ",
        "    now, each entry is an action to take in the transaction    "
      ],
      "fullUrl": "https://clinicals.spineservices.nhs.uk/STU3/List/e00c5a85-d34f-4075-96ac-b787deb484b1",
      "resource": {
        "resourceType": "List",
        "id": "e00c5a85-d34f-4075-96ac-b787deb484b1",
        "fhir_comments": [
          " found payload resource or operationOutcome in here "
        ],
        "meta": {
          "versionId": "f2fef5e5-c38a-408c-a9bc-2d49923928f8",
          "profile": [
            "https://fhir.nhs.uk/STU3/StructureDefinition/CareConnect-RARecord-List-1"
          ]
        },
        "contained": [
          {
            "resourceType": "Provenance",
            "id": "8ce7de6b-1307-432d-8e96-ae6a613ca3e4",
            "meta": {
              "profile": [
                "https://fhir.nhs.uk/STU3/StructureDefinition/RARecord-Provenance-1"
              ]
            },
            "target": [
              {
                "reference": "Condition/57f04652-6dd0-4135-a560-f9091b1b26fa"
              }
            ],
            "recorded": "2018-07-23T11:00:00+00:00",
            "agent": [
              {
                "role": [
                  {
                    "coding": [
                      {
                        "system": "https://fhir.nhs.uk/STU3/CodeSystem/CareConnect-SDSJobRoleName-1",
                        "code": "R0260",
                        "display": "General Medical Practitioner"
                      }
                    ]
                  }
                ],
                "whoReference": {
                  "reference": "https://sds.spineservices.nhs.uk/STU3/Practitioner/2ee4tr6a9",
                  "display": "Dr.D"
                },
                "onBehalfOfReference": {
                  "reference": "https://directory.spineservices.nhs.uk/STU3/Organization/a3e5i7",
                  "display": "Some GP Clinic"
                }
              }
            ]
          },
          {
            "resourceType": "Condition",
            "id": "57f04652-6dd0-4135-a560-f9091b1b26fa",
            "meta": {
              "profile": [
                "https://fhir.nhs.uk/STU3/StructureDefinition/CareConnect-RARecord-Condition-1"
              ]
            },
            "extension": [
              {
                "url": "https://fhir.nhs.uk/STU3/StructureDefinition/Extension-RARecord-Provenance-1",
                "extension": [
                  {
                    "url": "created",
                    "valueReference": {
                      "reference": "#8ce7de6b-1307-432d-8e96-ae6a613ca3e4"
                    }
                  }
                ]
              }
            ],
            "clinicalStatus": "active",
            "category": [
              {
                "coding": [
                  {
                    "system": "https://fhir.hl7.org.uk/STU3/CodeSystem/CareConnect-ConditionCategory-1",
                    "code": "issue",
                    "display": "Issue"
                  }
                ]
              }
            ],
            "code": {
              "coding": [
                {
                  "system": "https://fhir.nhs.uk/STU3/CodeSystem/RARecord-ConditionCode-1",
                  "code": "1855002",
                  "display": "Learning Disability(s)"
                }
              ]
            },
            "subject": {
              "reference": "demographics.spineservices.nhs.uk/STU3/Patient/999999998"
            }
          }
        ],
        "status": "current",
        "mode": "changes",
        "title": "Reasonable Adjustment List",
        "code": {
          "coding": [
            {
              "system": "http://snomed.info/sct",
              "code": "1094391000000102",
              "display": "Reasonable adjustments for health and care access"
            }
          ]
        },
        "subject": {
          "reference": "demographics.spineservices.nhs.uk/STU3/Patient/999999998"
        },
        "date": "2018-07-23T11:00:00+00:00",
        "entry": [
          {
            "deleted": false,
            "date": "2018-07-23T11:00:00+00:00",
            "item": {
              "reference": "#57f04652-6dd0-4135-a560-f9091b1b26fa"
            }
          },
          {
            "deleted": false,
            "date": "2018-07-23T11:00:00+00:00",
            "item": {
              "reference": "#8ce7de6b-1307-432d-8e96-ae6a613ca3e4"
            }
          }
        ]
      },
      "search": {
        "fhir_comments": [
          "    optional details about the search, useful here to categorise matches vs includes or to mark a search failure (the search process MAY include an OperationOutcome in the search set) "
        ],
        "mode": "match"
      }
    }
  ]
}