<!-- ReadListResponseBody-example.xml -->
<Bundle xmlns="http://hl7.org/fhir">
    <id value="b45afdbc-cce1-4623-8942-2ec3baf879e7"/>
    <meta>
        <profile value="http://hl7.org/fhir/bundle"/>
    </meta>
    <type value="searchset"/>
    <total value="1"/>
    <!--    all search sets include the self link - the statement of the query string searched on. -->
    <link>
        <relation value="self"/>
        <url value="https://clinicals.spineservices.nhs.uk/STU3/List?patient=999999998&amp;status=current&amp;code=http://snomed.info/sct|1094391000000102&amp;_format=xml"/>
   </link>
    <!-- search pagination is also represented as a link set here if required -->
    <!--    now, each entry is an action to take in the transaction    -->
    <entry>
        <fullUrl value="https://clinicals.spineservices.nhs.uk/STU3/List/e00c5a85-d34f-4075-96ac-b787deb484b1"/>
        <resource>
            <!-- found payload resource or operationOutcome in here -->
            <List xmlns="http://hl7.org/fhir">
                <id value="130f416a-055d-4a5d-a453-2b7c2de3b57b"/>
                <meta>
                    <versionId value="f2fef5e5-c38a-408c-a9bc-2d49923928f8"/>
                    <profile value="https://fhir.nhs.uk/STU3/StructureDefinition/CareConnect-RARecord-List-1"/>
                </meta>
                <contained>
                    <Condition xmlns="http://hl7.org/fhir">
                        <id value="57f04652-6dd0-4135-a560-f9091b1b26fa"/>
                        <meta>
                            <versionId value="557ccfc3-0c78-48bf-aedd-70cc08af2ba1"/>
                            <lastUpdated value="2018-07-23T11:00:00+00:00"/>
                            <profile value="https://fhir.nhs.uk/STU3/StructureDefinition/CareConnect-RARecord-Condition-1" />
                        </meta>
                        <clinicalStatus value="active"/>
                        <category>
                            <coding>
                                <system value="https://fhir.hl7.org.uk/STU3/CodeSystem/CareConnect-ConditionCategory-1"/>
                                <code value="issue"/>
                                <display value="Issue"/>
                            </coding>
                        </category>
                        <code>
                            <coding>
                                <system value="https://fhir.nhs.uk/STU3/CodeSystem/CodeSystem-RARecord-ConditionCode-1"/>
                                <code value="5"/>
                                <display value="Learning or understanding or concentrating"/>
                            </coding>
                        </code>
                        <subject>
                            <reference value="demographics.spineservices.nhs.uk/STU3/Patient/999999998"/>
                        </subject>
                    </Condition>
                </contained>
                <contained>
                    <Provenance>
                        <id value="8ce7de6b-1307-432d-8e96-ae6a613ca3e4"/>
                        <meta>
                            <profile value="https://fhir.nhs.uk/STU3/StructureDefinition/RARecord-Provenance-1"/>
                        </meta>
                        <target>
                            <reference value="Condition/57f04652-6dd0-4135-a560-f9091b1b26fa"/>
                        </target>
                        <recorded value="2018-07-23T11:00:00+00:00"/>
                        <activity>
                            <coding>
                                <system value="http://hl7.org/fhir/v3/DataOperation"/>
                                <code value="CREATE"/>
                                <display value="create"/>
                            </coding>
                        </activity>
                        <agent>
                            <role>
                                <coding>
                                    <system value="https://fhir.hl7.org.uk/STU3/CodeSystem/CareConnect-SDSJobRoleName-1"/>
                                    <code value="R0260"/>
                                    <display value="General Medical Practitioner"/>
                                </coding>
                            </role>
                            <whoReference>
                                <reference value="https://sds.spineservices.nhs.uk/STU3/Practitioner/2ee4tr6a9"/>
                                <display value="Dr.D"/>
                            </whoReference>
                            <onBehalfOfReference>
                                <reference value="https://directory.spineservices.nhs.uk/STU3/Organization/a3e5i7"/>
                                <display value="Some GP Clinic"/>
                            </onBehalfOfReference>
                        </agent>
                    </Provenance>
                </contained>
                <status value="current"/>
                <mode value="changes"/>
                <title value="Reasonable Adjustment List"/>
                <code>
                    <coding>
                        <system value="http://snomed.info/sct"/>
                        <code value="1094391000000102"/>
                        <display value="Reasonable adjustments for health and care access"/>
                    </coding>
                </code>
                <subject>
                    <reference value="demographics.spineservices.nhs.uk/STU3/Patient/999999998"/>
                </subject>
                <date value="2018-07-23T11:00:00+00:00"/>
                <entry>
                    <deleted value="false"/>
                    <date value="2018-07-23T11:00:00+00:00"/>
                    <item>
                        <reference value="urn:uuid:557ccfc3-0c78-48bf-aedd-70cc08af2ba1"/>
                    </item>
                </entry>
                <entry>
                    <deleted value="false"/>
                    <date value="2018-07-23T11:00:00+00:00"/>
                    <item>
                        <reference value="urn:uuid:8ce7de6b-1307-432d-8e96-ae6a613ca3e4"/>
                    </item>
                </entry>
            </List>
        </resource>
        <!--    optional details about the search, useful here to categorise matches vs includes or to mark a search failure (the search process MAY include an OperationOutcome in the search set) -->
        <search>
          <mode value="match"/>
        </search>
    </entry>
</Bundle>