<!-- xml example file 
UpdateExample-CreateFlagResponse.xml -->
<Flag xmlns="http://hl7.org/fhir">
    <id value="d82888a3-1584-4e7f-99f1-3e578a1c9d37"/>
    <meta>
        <versionId value="5b293b55-5ca5-4670-91e2-adb905001b96"/>
        <lastUpdated value="2018-07-25T11:03:00+00:00"/>
        <profile value="https://fhir.nhs.uk/STU3/StructureDefinition/RARecord-Flag-1"/>
    </meta>
    <contained>
        <Provenance>
            <id value="9e6fb1d3-4f10-4087-8782-bff20bf2a07f"/>
            <meta>
                <profile value="https://fhir.nhs.uk/STU3/StructureDefinition/RARecord-Provenance-1"/>
            </meta>
            <target>
                <reference value="Flag/d82888a3-1584-4e7f-99f1-3e578a1c9d37"/>
            </target>
            <recorded value="2018-07-25T11:03:00+00:00"/>
            <agent>
                <role>
                    <coding>
                        <system value="https://fhir.nhs.uk/STU3/CodeSystem/CareConnect-SDSJobRoleName-1"/>
                        <code value="R0260"/>
                        <display value="General Medical Practitioner"/>
                    </coding>
                </role>
                <whoReference>
                    <reference value="https://sds.spineservices.nhs.uk/STU3/Practitioner/2ee4tr6a9"/>
                    <display value="Dr.D"/>
                </whoReference>
                <onBehalfOfReference>
                    <reference value="https://directory.spineservices.nhs.uk/STU3/Organization/a3e5i7"/>
                    <display value="Some GP Clinic"/>
                </onBehalfOfReference>
            </agent>
        </Provenance>
    </contained>
    <extension url="https://fhir.nhs.uk/STU3/StructureDefinition/Extension-RARecord-Provenance-1">
        <extension url="created">
            <valueReference>
                <reference value="#9e6fb1d3-4f10-4087-8782-bff20bf2a07f"/>
            </valueReference>
        </extension>
    </extension>
    <extension url="https://fhir.nhs.uk/STU3/StructureDefinition/Extension-RARecord-AdjustmentCategory-1">
        <valueCodeableConcept>
            <coding>
                <system value="https://fhir.nhs.uk/STU3/CodeSystem/RARecord-AdjustmentCategory-1"/>
                <code value="004"/>
                <display value="Accessible Information - requires specific information format"/>
            </coding>
        </valueCodeableConcept>
    </extension>
    <status value="active"/>
    <category>
        <coding>
            <system value="https://fhir.nhs.uk/STU3/CodeSystem/RARecord-FlagCategory-1"/>
            <code value="NRAF"/>
            <display value="National Reasonable Adjustments Flag"/>
        </coding>
    </category>
    <code>
        <coding>
            <system value="https://snomed.info/sct"/>
            <code value="957351000000102"/>
            <display value="Requires written information in at least 28 point sans serif font"/>
        </coding>
    </code>
    <subject>
            <reference value="demographics.spineservices.nhs.uk/STU3/Patient/999999998"/>
    </subject>
</Flag>